 % wavelength (nm), transmission
  350.0000    0.8119
  355.0000    0.7766
  360.0000    0.7332
  365.0000    0.6843
  370.0000    0.6192
  375.0000    0.5630
  380.0000    0.4784
  385.0000    0.4064
  390.0000    0.3359
  395.0000    0.2670
  400.0000    0.2036
  405.0000    0.1557
  410.0000    0.1165
  415.0000    0.0891
  420.0000    0.0676
  425.0000    0.0528
  430.0000    0.0452
  435.0000    0.0485
  440.0000    0.0679
  445.0000    0.1085
  450.0000    0.1838
  455.0000    0.2751
  460.0000    0.3908
  465.0000    0.4939
  470.0000    0.5848
  475.0000    0.6691
  480.0000    0.7452
  485.0000    0.8030
  490.0000    0.8562
  495.0000    0.8799
  500.0000    0.9088
  505.0000    0.9369
  510.0000    0.9467
  515.0000    0.9579
  520.0000    0.9635
  525.0000    0.9704
  530.0000    0.9763
  535.0000    0.9746
  540.0000    0.9846
  545.0000    0.9881
  550.0000    0.9832
  555.0000    0.9866
  560.0000    0.9868
  565.0000    0.9917
  570.0000    0.9831
  575.0000    0.9899
  580.0000    0.9863
  585.0000    0.9872
  590.0000    0.9865
  595.0000    0.9858
  600.0000    0.9905
